[{"rt":229515.8400000073,"stimulus":"Welcome to our experiment!<p>At the bottom of this screen, you will see a button that says \"Begin Experiment\".<br>Please only click that button when you are ready to complete the 40 minute experiment in one sitting.</p><p> Once you click that button, it will not be possible to restart the experiment.","button_pressed":"0","trial_type":"html-button-response","trial_index":0,"time_elapsed":229516,"internal_node_id":"0.0-0.0","subject_id":"x03ohep3ck"},{"rt":null,"stimulus":"","key_press":null,"trial_type":"html-keyboard-response","trial_index":1,"time_elapsed":229531,"internal_node_id":"0.0-1.0","subject_id":"x03ohep3ck"},{"rt":13328.689999994822,"responses":"{\"Consent\":[\"<strong>I consent</strong>\"]}","question_order":"[0]","trial_type":"survey-multi-selectMAS","trial_index":2,"time_elapsed":242864,"internal_node_id":"0.0-2.0","subject_id":"x03ohep3ck"},{"rt":1328.364999993937,"stimulus":"Welcome! <p> This experiment involves two parts: demographic information, followed by the experimental task.<p> It will take about 40 minutes to complete both parts.","button_pressed":"0","trial_type":"html-button-response","trial_index":3,"time_elapsed":244199,"internal_node_id":"0.0-3.0","subject_id":"x03ohep3ck"},{"rt":6109.595000001718,"responses":"{\"Age\":\"1\",\"Gender\":\"1\",\"Race\":\"1\",\"Languages\":\"1\"}","trial_type":"survey-text","trial_index":4,"time_elapsed":250327,"internal_node_id":"0.0-4.0","subject_id":"x03ohep3ck"},{"rt":2291.144999995595,"stimulus":"<p>Great job!</p> You have completed the consent process and answered the demographic questions.<p> Press the spacebar to continue to the experimental task. </p>","key_press":32,"trial_type":"html-keyboard-response","trial_index":5,"time_elapsed":252619,"internal_node_id":"0.0-5.0","subject_id":"x03ohep3ck"},{"rt":25067,"label_options":"[\"strawberry\",\"lemon\",\"blueberry\",\"watermelon\",\"mango\"]","bar_cols":"[\"#2e3086\",\"#aac510\",\"#f7a75a\",\"#db1f9d\",\"#184415\"]","answer_key":"[\"blueberry\",\"lemon\",\"mango\",\"strawberry\",\"watermelon\"]","label_responses":"[\"blueberry\",\"lemon\",\"mango\",\"strawberry\",\"watermelon\"]","condition":"null","repetition":"null","category":"\"practice_trial\"","pal_source":"null","accuracies":"[1,1,1,1,1]","total accuracy":"5","order_num":"null","trial_type":"assignment-inference","trial_index":6,"time_elapsed":277689,"internal_node_id":"0.0-6.0","subject_id":"x03ohep3ck"},{"rt":16290,"label_options":"[\"banana\",\"cherry\",\"peach\",\"grape\",\"apple\"]","bar_cols":"[\"#3efe44\",\"#fcdb42\",\"#e31b73\",\"#512d5f\",\"#f1a78a\"]","answer_key":"[\"apple\",\"banana\",\"cherry\",\"grape\",\"peach\"]","label_responses":"[\"apple\",\"banana\",\"cherry\",\"grape\",\"peach\"]","condition":"\"colorable\"","repetition":"0","category":"\"fruits\"","pal_source":"\"uw_71\"","accuracies":"[1,1,1,1,1]","total accuracy":"5","order_num":"0","trial_type":"assignment-inference","trial_index":7,"time_elapsed":293982,"internal_node_id":"0.0-7.0","subject_id":"x03ohep3ck"},{"rt":17123,"label_options":"[\"comfort\",\"safety\",\"reliability\",\"speed\",\"efficiency\"]","bar_cols":"[\"#f7b6d2\",\"#ff7f0e\",\"#9467bd\",\"#bcbd22\",\"#d62728\"]","answer_key":"[\"comfort\",\"efficiency\",\"reliability\",\"safety\",\"speed\"]","label_responses":"[\"comfort\",\"safety\",\"reliability\",\"efficiency\",\"speed\"]","condition":"\"non-colorable\"","repetition":"0","category":"\"features\"","pal_source":"\"tab_20\"","accuracies":"[1,0,1,0,1]","total accuracy":"3","order_num":"0","trial_type":"assignment-inference","trial_index":8,"time_elapsed":311107,"internal_node_id":"0.0-8.0","subject_id":"x03ohep3ck"},{"rt":10972,"label_options":"[\"peach\",\"banana\",\"grape\",\"apple\",\"cherry\"]","bar_cols":"[\"#17becf\",\"#bcbd22\",\"#d62728\",\"#9467bd\",\"#c49c94\"]","answer_key":"[\"apple\",\"banana\",\"cherry\",\"grape\",\"peach\"]","label_responses":"[\"apple\",\"banana\",\"cherry\",\"grape\",\"peach\"]","condition":"\"colorable\"","repetition":"0","category":"\"fruits\"","pal_source":"\"tab_20\"","accuracies":"[1,1,1,1,1]","total accuracy":"5","order_num":"0","trial_type":"assignment-inference","trial_index":9,"time_elapsed":322083,"internal_node_id":"0.0-9.0","subject_id":"x03ohep3ck"},{"rt":24680,"label_options":"[\"speed\",\"safety\",\"reliability\",\"efficiency\",\"comfort\"]","bar_cols":"[\"#f1a78a\",\"#2f6ef6\",\"#443b14\",\"#55824d\",\"#e81a4b\"]","answer_key":"[\"comfort\",\"efficiency\",\"reliability\",\"safety\",\"speed\"]","label_responses":"[\"safety\",\"comfort\",\"efficiency\",\"reliability\",\"speed\"]","condition":"\"non-colorable\"","repetition":"0","category":"\"features\"","pal_source":"\"uw_71\"","accuracies":"[0,0,0,0,1]","total accuracy":"1","order_num":"0","trial_type":"assignment-inference","trial_index":10,"time_elapsed":346764,"internal_node_id":"0.0-10.0","subject_id":"x03ohep3ck"},{"rt":12552,"label_options":"[\"red\",\"orange\",\"blue\",\"green\",\"yellow\"]","bar_cols":"[\"#2f6ef6\",\"#67cf5c\",\"#ea1d1d\",\"#fcdb42\",\"#fba714\"]","answer_key":"[\"blue\",\"green\",\"red\",\"yellow\",\"orange\"]","label_responses":"[\"blue\",\"green\",\"red\",\"yellow\",\"orange\"]","condition":"null","repetition":"0","category":"\"catch_trial\"","pal_source":"null","accuracies":"[1,1,1,1,1]","total accuracy":"5","order_num":"null","trial_type":"assignment-inference","trial_index":11,"time_elapsed":359320,"internal_node_id":"0.0-11.0","subject_id":"x03ohep3ck"},{"rt":22653,"label_options":"[\"driving\",\"sleeping\",\"eating\",\"working\",\"leisure\"]","bar_cols":"[\"#d62728\",\"#ff7f0e\",\"#f7b6d2\",\"#1f77b4\",\"#8c564b\"]","answer_key":"[\"driving\",\"eating\",\"leisure\",\"sleeping\",\"working\"]","label_responses":"[\"eating\",\"working\",\"leisure\",\"sleeping\",\"driving\"]","condition":"\"non-colorable\"","repetition":"0","category":"\"activities\"","pal_source":"\"tab_20\"","accuracies":"[0,0,1,1,0]","total accuracy":"2","order_num":"0","trial_type":"assignment-inference","trial_index":12,"time_elapsed":381975,"internal_node_id":"0.0-12.0","subject_id":"x03ohep3ck"},{"rt":17919,"label_options":"[\"leisure\",\"sleeping\",\"driving\",\"working\",\"eating\"]","bar_cols":"[\"#3efe44\",\"#cc4f1b\",\"#39f6e0\",\"#2e3086\",\"#83764c\"]","answer_key":"[\"driving\",\"eating\",\"leisure\",\"sleeping\",\"working\"]","label_responses":"[\"driving\",\"eating\",\"leisure\",\"sleeping\",\"working\"]","condition":"\"non-colorable\"","repetition":"0","category":"\"activities\"","pal_source":"\"uw_71\"","accuracies":"[1,1,1,1,1]","total accuracy":"5","order_num":"0","trial_type":"assignment-inference","trial_index":13,"time_elapsed":399896,"internal_node_id":"0.0-13.0","subject_id":"x03ohep3ck"},{"rt":10980,"label_options":"[\"eggplant\",\"carrot\",\"corn\",\"mushroom\",\"celery\"]","bar_cols":"[\"#cc4f1b\",\"#8cf47e\",\"#fcdb42\",\"#600b84\",\"#83764c\"]","answer_key":"[\"carrot\",\"celery\",\"corn\",\"eggplant\",\"mushroom\"]","label_responses":"[\"carrot\",\"celery\",\"corn\",\"eggplant\",\"mushroom\"]","condition":"\"colorable\"","repetition":"0","category":"\"vegetables\"","pal_source":"\"uw_71\"","accuracies":"[1,1,1,1,1]","total accuracy":"5","order_num":"0","trial_type":"assignment-inference","trial_index":14,"time_elapsed":410879,"internal_node_id":"0.0-14.0","subject_id":"x03ohep3ck"},{"rt":11909,"label_options":"[\"corn\",\"mushroom\",\"carrot\",\"eggplant\",\"celery\"]","bar_cols":"[\"#ff7f0e\",\"#98df8a\",\"#bcbd22\",\"#9467bd\",\"#c7c7c7\"]","answer_key":"[\"carrot\",\"celery\",\"corn\",\"eggplant\",\"mushroom\"]","label_responses":"[\"carrot\",\"celery\",\"corn\",\"eggplant\",\"mushroom\"]","condition":"\"colorable\"","repetition":"0","category":"\"vegetables\"","pal_source":"\"tab_20\"","accuracies":"[1,1,1,1,1]","total accuracy":"5","order_num":"0","trial_type":"assignment-inference","trial_index":15,"time_elapsed":422792,"internal_node_id":"0.0-15.0","subject_id":"x03ohep3ck"},{"rt":2050.4300000029616,"stimulus":"<div style='margin-left: auto;margin-right: auto;width: 75%;text-align: left;'>Great job! You've completed 20% of the trials! Click 'Continue' when you are ready to keep going. </div>","button_pressed":"0","trial_type":"html-button-response","trial_index":16,"time_elapsed":424844,"internal_node_id":"0.0-16.0","subject_id":"x03ohep3ck"},{"rt":10629,"label_options":"[\"blue\",\"red\",\"yellow\",\"green\",\"orange\"]","bar_cols":"[\"#fcdb42\",\"#fba714\",\"#2f6ef6\",\"#67cf5c\",\"#ea1d1d\"]","answer_key":"[\"yellow\",\"orange\",\"blue\",\"green\",\"red\"]","label_responses":"[\"yellow\",\"orange\",\"blue\",\"green\",\"red\"]","condition":"null","repetition":"1","category":"\"catch_trial\"","pal_source":"null","accuracies":"[1,1,1,1,1]","total accuracy":"5","order_num":"null","trial_type":"assignment-inference","trial_index":17,"time_elapsed":435477,"internal_node_id":"0.0-17.0","subject_id":"x03ohep3ck"},{"rt":16316,"label_options":"[\"safety\",\"comfort\",\"speed\",\"efficiency\",\"reliability\"]","bar_cols":"[\"#55824d\",\"#e81a4b\",\"#f1a78a\",\"#2f6ef6\",\"#443b14\"]","answer_key":"[\"safety\",\"speed\",\"comfort\",\"efficiency\",\"reliability\"]","label_responses":"[\"safety\",\"speed\",\"reliability\",\"comfort\",\"efficiency\"]","condition":"\"non-colorable\"","repetition":"1","category":"\"features\"","pal_source":"\"uw_71\"","accuracies":"[1,1,0,0,0]","total accuracy":"2","order_num":"3","trial_type":"assignment-inference","trial_index":18,"time_elapsed":451794,"internal_node_id":"0.0-18.0","subject_id":"x03ohep3ck"},{"rt":12210,"label_options":"[\"peach\",\"cherry\",\"grape\",\"banana\",\"apple\"]","bar_cols":"[\"#512d5f\",\"#f1a78a\",\"#3efe44\",\"#fcdb42\",\"#e31b73\"]","answer_key":"[\"grape\",\"peach\",\"apple\",\"banana\",\"cherry\"]","label_responses":"[\"grape\",\"peach\",\"apple\",\"banana\",\"cherry\"]","condition":"\"colorable\"","repetition":"1","category":"\"fruits\"","pal_source":"\"uw_71\"","accuracies":"[1,1,1,1,1]","total accuracy":"5","order_num":"3","trial_type":"assignment-inference","trial_index":19,"time_elapsed":464007,"internal_node_id":"0.0-19.0","subject_id":"x03ohep3ck"},{"rt":10402,"label_options":"[\"cherry\",\"banana\",\"apple\",\"peach\",\"grape\"]","bar_cols":"[\"#9467bd\",\"#c49c94\",\"#17becf\",\"#bcbd22\",\"#d62728\"]","answer_key":"[\"grape\",\"peach\",\"apple\",\"banana\",\"cherry\"]","label_responses":"[\"grape\",\"peach\",\"apple\",\"banana\",\"cherry\"]","condition":"\"colorable\"","repetition":"1","category":"\"fruits\"","pal_source":"\"tab_20\"","accuracies":"[1,1,1,1,1]","total accuracy":"5","order_num":"3","trial_type":"assignment-inference","trial_index":20,"time_elapsed":474412,"internal_node_id":"0.0-20.0","subject_id":"x03ohep3ck"},{"rt":16239,"label_options":"[\"leisure\",\"working\",\"eating\",\"sleeping\",\"driving\"]","bar_cols":"[\"#1f77b4\",\"#8c564b\",\"#d62728\",\"#ff7f0e\",\"#f7b6d2\"]","answer_key":"[\"sleeping\",\"working\",\"driving\",\"eating\",\"leisure\"]","label_responses":"[\"sleeping\",\"driving\",\"eating\",\"working\",\"leisure\"]","condition":"\"non-colorable\"","repetition":"1","category":"\"activities\"","pal_source":"\"tab_20\"","accuracies":"[1,0,0,0,1]","total accuracy":"2","order_num":"3","trial_type":"assignment-inference","trial_index":21,"time_elapsed":490655,"internal_node_id":"0.0-21.0","subject_id":"x03ohep3ck"},{"rt":10021,"label_options":"[\"carrot\",\"corn\",\"mushroom\",\"eggplant\",\"celery\"]","bar_cols":"[\"#9467bd\",\"#c7c7c7\",\"#ff7f0e\",\"#98df8a\",\"#bcbd22\"]","answer_key":"[\"eggplant\",\"mushroom\",\"carrot\",\"celery\",\"corn\"]","label_responses":"[\"eggplant\",\"mushroom\",\"carrot\",\"celery\",\"corn\"]","condition":"\"colorable\"","repetition":"1","category":"\"vegetables\"","pal_source":"\"tab_20\"","accuracies":"[1,1,1,1,1]","total accuracy":"5","order_num":"3","trial_type":"assignment-inference","trial_index":22,"time_elapsed":500678,"internal_node_id":"0.0-22.0","subject_id":"x03ohep3ck"},{"rt":23021,"label_options":"[\"working\",\"driving\",\"sleeping\",\"eating\",\"leisure\"]","bar_cols":"[\"#2e3086\",\"#83764c\",\"#3efe44\",\"#cc4f1b\",\"#39f6e0\"]","answer_key":"[\"sleeping\",\"working\",\"driving\",\"eating\",\"leisure\"]","label_responses":"[\"sleeping\",\"driving\",\"eating\",\"working\",\"leisure\"]","condition":"\"non-colorable\"","repetition":"1","category":"\"activities\"","pal_source":"\"uw_71\"","accuracies":"[1,0,0,0,1]","total accuracy":"2","order_num":"3","trial_type":"assignment-inference","trial_index":23,"time_elapsed":523702,"internal_node_id":"0.0-23.0","subject_id":"x03ohep3ck"},{"rt":9705,"label_options":"[\"corn\",\"eggplant\",\"celery\",\"carrot\",\"mushroom\"]","bar_cols":"[\"#600b84\",\"#83764c\",\"#cc4f1b\",\"#8cf47e\",\"#fcdb42\"]","answer_key":"[\"eggplant\",\"mushroom\",\"carrot\",\"celery\",\"corn\"]","label_responses":"[\"eggplant\",\"mushroom\",\"carrot\",\"celery\",\"corn\"]","condition":"\"colorable\"","repetition":"1","category":"\"vegetables\"","pal_source":"\"uw_71\"","accuracies":"[1,1,1,1,1]","total accuracy":"5","order_num":"3","trial_type":"assignment-inference","trial_index":24,"time_elapsed":533409,"internal_node_id":"0.0-24.0","subject_id":"x03ohep3ck"},{"rt":15587,"label_options":"[\"safety\",\"reliability\",\"comfort\",\"speed\",\"efficiency\"]","bar_cols":"[\"#bcbd22\",\"#d62728\",\"#f7b6d2\",\"#ff7f0e\",\"#9467bd\"]","answer_key":"[\"safety\",\"speed\",\"comfort\",\"efficiency\",\"reliability\"]","label_responses":"[\"efficiency\",\"speed\",\"comfort\",\"safety\",\"reliability\"]","condition":"\"non-colorable\"","repetition":"1","category":"\"features\"","pal_source":"\"tab_20\"","accuracies":"[0,1,1,0,1]","total accuracy":"3","order_num":"3","trial_type":"assignment-inference","trial_index":25,"time_elapsed":549001,"internal_node_id":"0.0-25.0","subject_id":"x03ohep3ck"},{"rt":11390.339999998105,"stimulus":"<div style='margin-left: auto;margin-right: auto;width: 75%;text-align: left;'>Great job! You've completed 40% of the trials! Click 'Continue' when you are ready to keep going. </div>","button_pressed":"0","trial_type":"html-button-response","trial_index":26,"time_elapsed":560393,"internal_node_id":"0.0-26.0","subject_id":"x03ohep3ck"},{"rt":11250,"label_options":"[\"grape\",\"cherry\",\"banana\",\"peach\",\"apple\"]","bar_cols":"[\"#fcdb42\",\"#e31b73\",\"#512d5f\",\"#f1a78a\",\"#3efe44\"]","answer_key":"[\"banana\",\"cherry\",\"grape\",\"peach\",\"apple\"]","label_responses":"[\"banana\",\"cherry\",\"grape\",\"peach\",\"apple\"]","condition":"\"colorable\"","repetition":"2","category":"\"fruits\"","pal_source":"\"uw_71\"","accuracies":"[1,1,1,1,1]","total accuracy":"5","order_num":"1","trial_type":"assignment-inference","trial_index":27,"time_elapsed":571647,"internal_node_id":"0.0-27.0","subject_id":"x03ohep3ck"},{"rt":15346,"label_options":"[\"comfort\",\"reliability\",\"efficiency\",\"speed\",\"safety\"]","bar_cols":"[\"#2f6ef6\",\"#443b14\",\"#55824d\",\"#e81a4b\",\"#f1a78a\"]","answer_key":"[\"efficiency\",\"reliability\",\"safety\",\"speed\",\"comfort\"]","label_responses":"[\"comfort\",\"efficiency\",\"safety\",\"speed\",\"reliability\"]","condition":"\"non-colorable\"","repetition":"2","category":"\"features\"","pal_source":"\"uw_71\"","accuracies":"[0,0,1,1,0]","total accuracy":"2","order_num":"1","trial_type":"assignment-inference","trial_index":28,"time_elapsed":586995,"internal_node_id":"0.0-28.0","subject_id":"x03ohep3ck"},{"rt":15831,"label_options":"[\"speed\",\"reliability\",\"efficiency\",\"safety\",\"comfort\"]","bar_cols":"[\"#ff7f0e\",\"#9467bd\",\"#bcbd22\",\"#d62728\",\"#f7b6d2\"]","answer_key":"[\"efficiency\",\"reliability\",\"safety\",\"speed\",\"comfort\"]","label_responses":"[\"safety\",\"reliability\",\"efficiency\",\"speed\",\"comfort\"]","condition":"\"non-colorable\"","repetition":"2","category":"\"features\"","pal_source":"\"tab_20\"","accuracies":"[0,1,0,1,1]","total accuracy":"3","order_num":"1","trial_type":"assignment-inference","trial_index":29,"time_elapsed":602829,"internal_node_id":"0.0-29.0","subject_id":"x03ohep3ck"},{"rt":13636,"label_options":"[\"eating\",\"sleeping\",\"driving\",\"leisure\",\"working\"]","bar_cols":"[\"#ff7f0e\",\"#f7b6d2\",\"#1f77b4\",\"#8c564b\",\"#d62728\"]","answer_key":"[\"eating\",\"leisure\",\"sleeping\",\"working\",\"driving\"]","label_responses":"[\"working\",\"leisure\",\"sleeping\",\"driving\",\"eating\"]","condition":"\"non-colorable\"","repetition":"2","category":"\"activities\"","pal_source":"\"tab_20\"","accuracies":"[0,1,1,0,0]","total accuracy":"2","order_num":"1","trial_type":"assignment-inference","trial_index":30,"time_elapsed":616467,"internal_node_id":"0.0-30.0","subject_id":"x03ohep3ck"},{"rt":9927,"label_options":"[\"carrot\",\"eggplant\",\"corn\",\"mushroom\",\"celery\"]","bar_cols":"[\"#8cf47e\",\"#fcdb42\",\"#600b84\",\"#83764c\",\"#cc4f1b\"]","answer_key":"[\"celery\",\"corn\",\"eggplant\",\"mushroom\",\"carrot\"]","label_responses":"[\"celery\",\"corn\",\"eggplant\",\"mushroom\",\"carrot\"]","condition":"\"colorable\"","repetition":"2","category":"\"vegetables\"","pal_source":"\"uw_71\"","accuracies":"[1,1,1,1,1]","total accuracy":"5","order_num":"1","trial_type":"assignment-inference","trial_index":31,"time_elapsed":626399,"internal_node_id":"0.0-31.0","subject_id":"x03ohep3ck"},{"rt":15011,"label_options":"[\"sleeping\",\"driving\",\"eating\",\"leisure\",\"working\"]","bar_cols":"[\"#cc4f1b\",\"#39f6e0\",\"#2e3086\",\"#83764c\",\"#3efe44\"]","answer_key":"[\"eating\",\"leisure\",\"sleeping\",\"working\",\"driving\"]","label_responses":"[\"eating\",\"leisure\",\"sleeping\",\"working\",\"driving\"]","condition":"\"non-colorable\"","repetition":"2","category":"\"activities\"","pal_source":"\"uw_71\"","accuracies":"[1,1,1,1,1]","total accuracy":"5","order_num":"1","trial_type":"assignment-inference","trial_index":32,"time_elapsed":641412,"internal_node_id":"0.0-32.0","subject_id":"x03ohep3ck"},{"rt":10208,"label_options":"[\"eggplant\",\"celery\",\"corn\",\"mushroom\",\"carrot\"]","bar_cols":"[\"#98df8a\",\"#bcbd22\",\"#9467bd\",\"#c7c7c7\",\"#ff7f0e\"]","answer_key":"[\"celery\",\"corn\",\"eggplant\",\"mushroom\",\"carrot\"]","label_responses":"[\"celery\",\"corn\",\"eggplant\",\"mushroom\",\"carrot\"]","condition":"\"colorable\"","repetition":"2","category":"\"vegetables\"","pal_source":"\"tab_20\"","accuracies":"[1,1,1,1,1]","total accuracy":"5","order_num":"1","trial_type":"assignment-inference","trial_index":33,"time_elapsed":651623,"internal_node_id":"0.0-33.0","subject_id":"x03ohep3ck"},{"rt":11436,"label_options":"[\"green\",\"yellow\",\"blue\",\"orange\",\"red\"]","bar_cols":"[\"#67cf5c\",\"#ea1d1d\",\"#fcdb42\",\"#fba714\",\"#2f6ef6\"]","answer_key":"[\"green\",\"red\",\"yellow\",\"orange\",\"blue\"]","label_responses":"[\"green\",\"red\",\"yellow\",\"orange\",\"blue\"]","condition":"null","repetition":"2","category":"\"catch_trial\"","pal_source":"null","accuracies":"[1,1,1,1,1]","total accuracy":"5","order_num":"null","trial_type":"assignment-inference","trial_index":34,"time_elapsed":663062,"internal_node_id":"0.0-34.0","subject_id":"x03ohep3ck"},{"rt":13797,"label_options":"[\"banana\",\"peach\",\"cherry\",\"apple\",\"grape\"]","bar_cols":"[\"#bcbd22\",\"#d62728\",\"#9467bd\",\"#c49c94\",\"#17becf\"]","answer_key":"[\"banana\",\"cherry\",\"grape\",\"peach\",\"apple\"]","label_responses":"[\"banana\",\"cherry\",\"grape\",\"peach\",\"apple\"]","condition":"\"colorable\"","repetition":"2","category":"\"fruits\"","pal_source":"\"tab_20\"","accuracies":"[1,1,1,1,1]","total accuracy":"5","order_num":"1","trial_type":"assignment-inference","trial_index":35,"time_elapsed":676862,"internal_node_id":"0.0-35.0","subject_id":"x03ohep3ck"},{"rt":1479.4499999989057,"stimulus":"<div style='margin-left: auto;margin-right: auto;width: 75%;text-align: left;'>Great job! You've completed 60% of the trials! Click 'Continue' when you are ready to keep going. </div>","button_pressed":"0","trial_type":"html-button-response","trial_index":36,"time_elapsed":678346,"internal_node_id":"0.0-36.0","subject_id":"x03ohep3ck"},{"rt":11936,"label_options":"[\"speed\",\"safety\",\"efficiency\",\"comfort\",\"reliability\"]","bar_cols":"[\"#9467bd\",\"#bcbd22\",\"#d62728\",\"#f7b6d2\",\"#ff7f0e\"]","answer_key":"[\"reliability\",\"safety\",\"speed\",\"comfort\",\"efficiency\"]","label_responses":"[\"reliability\",\"efficiency\",\"speed\",\"comfort\",\"safety\"]","condition":"\"non-colorable\"","repetition":"3","category":"\"features\"","pal_source":"\"tab_20\"","accuracies":"[1,0,1,1,0]","total accuracy":"3","order_num":"2","trial_type":"assignment-inference","trial_index":37,"time_elapsed":690286,"internal_node_id":"0.0-37.0","subject_id":"x03ohep3ck"},{"rt":24309,"label_options":"[\"reliability\",\"comfort\",\"efficiency\",\"safety\",\"speed\"]","bar_cols":"[\"#443b14\",\"#55824d\",\"#e81a4b\",\"#f1a78a\",\"#2f6ef6\"]","answer_key":"[\"reliability\",\"safety\",\"speed\",\"comfort\",\"efficiency\"]","label_responses":"[\"efficiency\",\"safety\",\"speed\",\"reliability\",\"comfort\"]","condition":"\"non-colorable\"","repetition":"3","category":"\"features\"","pal_source":"\"uw_71\"","accuracies":"[0,1,1,0,0]","total accuracy":"2","order_num":"2","trial_type":"assignment-inference","trial_index":38,"time_elapsed":714597,"internal_node_id":"0.0-38.0","subject_id":"x03ohep3ck"},{"rt":9329,"label_options":"[\"grape\",\"cherry\",\"apple\",\"banana\",\"peach\"]","bar_cols":"[\"#d62728\",\"#9467bd\",\"#c49c94\",\"#17becf\",\"#bcbd22\"]","answer_key":"[\"cherry\",\"grape\",\"peach\",\"apple\",\"banana\"]","label_responses":"[\"cherry\",\"grape\",\"peach\",\"apple\",\"banana\"]","condition":"\"colorable\"","repetition":"3","category":"\"fruits\"","pal_source":"\"tab_20\"","accuracies":"[1,1,1,1,1]","total accuracy":"5","order_num":"2","trial_type":"assignment-inference","trial_index":39,"time_elapsed":723929,"internal_node_id":"0.0-39.0","subject_id":"x03ohep3ck"},{"rt":13244,"label_options":"[\"eggplant\",\"celery\",\"mushroom\",\"carrot\",\"corn\"]","bar_cols":"[\"#bcbd22\",\"#9467bd\",\"#c7c7c7\",\"#ff7f0e\",\"#98df8a\"]","answer_key":"[\"corn\",\"eggplant\",\"mushroom\",\"carrot\",\"celery\"]","label_responses":"[\"corn\",\"eggplant\",\"mushroom\",\"carrot\",\"celery\"]","condition":"\"colorable\"","repetition":"3","category":"\"vegetables\"","pal_source":"\"tab_20\"","accuracies":"[1,1,1,1,1]","total accuracy":"5","order_num":"2","trial_type":"assignment-inference","trial_index":40,"time_elapsed":737175,"internal_node_id":"0.0-40.0","subject_id":"x03ohep3ck"},{"rt":17248,"label_options":"[\"working\",\"driving\",\"leisure\",\"eating\",\"sleeping\"]","bar_cols":"[\"#f7b6d2\",\"#1f77b4\",\"#8c564b\",\"#d62728\",\"#ff7f0e\"]","answer_key":"[\"leisure\",\"sleeping\",\"working\",\"driving\",\"eating\"]","label_responses":"[\"leisure\",\"sleeping\",\"driving\",\"eating\",\"working\"]","condition":"\"non-colorable\"","repetition":"3","category":"\"activities\"","pal_source":"\"tab_20\"","accuracies":"[1,1,0,0,0]","total accuracy":"2","order_num":"2","trial_type":"assignment-inference","trial_index":41,"time_elapsed":754427,"internal_node_id":"0.0-41.0","subject_id":"x03ohep3ck"},{"rt":13756,"label_options":"[\"leisure\",\"working\",\"driving\",\"eating\",\"sleeping\"]","bar_cols":"[\"#39f6e0\",\"#2e3086\",\"#83764c\",\"#3efe44\",\"#cc4f1b\"]","answer_key":"[\"leisure\",\"sleeping\",\"working\",\"driving\",\"eating\"]","label_responses":"[\"leisure\",\"sleeping\",\"driving\",\"working\",\"eating\"]","condition":"\"non-colorable\"","repetition":"3","category":"\"activities\"","pal_source":"\"uw_71\"","accuracies":"[1,1,0,0,1]","total accuracy":"3","order_num":"2","trial_type":"assignment-inference","trial_index":42,"time_elapsed":768185,"internal_node_id":"0.0-42.0","subject_id":"x03ohep3ck"},{"rt":12340,"label_options":"[\"apple\",\"cherry\",\"banana\",\"grape\",\"peach\"]","bar_cols":"[\"#e31b73\",\"#512d5f\",\"#f1a78a\",\"#3efe44\",\"#fcdb42\"]","answer_key":"[\"cherry\",\"grape\",\"peach\",\"apple\",\"banana\"]","label_responses":"[\"cherry\",\"grape\",\"peach\",\"apple\",\"banana\"]","condition":"\"colorable\"","repetition":"3","category":"\"fruits\"","pal_source":"\"uw_71\"","accuracies":"[1,1,1,1,1]","total accuracy":"5","order_num":"2","trial_type":"assignment-inference","trial_index":43,"time_elapsed":780528,"internal_node_id":"0.0-43.0","subject_id":"x03ohep3ck"},{"rt":10484,"label_options":"[\"yellow\",\"green\",\"red\",\"blue\",\"orange\"]","bar_cols":"[\"#ea1d1d\",\"#fcdb42\",\"#fba714\",\"#2f6ef6\",\"#67cf5c\"]","answer_key":"[\"red\",\"yellow\",\"orange\",\"blue\",\"green\"]","label_responses":"[\"red\",\"yellow\",\"orange\",\"blue\",\"green\"]","condition":"null","repetition":"3","category":"\"catch_trial\"","pal_source":"null","accuracies":"[1,1,1,1,1]","total accuracy":"5","order_num":"null","trial_type":"assignment-inference","trial_index":44,"time_elapsed":791013,"internal_node_id":"0.0-44.0","subject_id":"x03ohep3ck"},{"rt":12159,"label_options":"[\"carrot\",\"mushroom\",\"corn\",\"celery\",\"eggplant\"]","bar_cols":"[\"#fcdb42\",\"#600b84\",\"#83764c\",\"#cc4f1b\",\"#8cf47e\"]","answer_key":"[\"corn\",\"eggplant\",\"mushroom\",\"carrot\",\"celery\"]","label_responses":"[\"corn\",\"eggplant\",\"mushroom\",\"carrot\",\"celery\"]","condition":"\"colorable\"","repetition":"3","category":"\"vegetables\"","pal_source":"\"uw_71\"","accuracies":"[1,1,1,1,1]","total accuracy":"5","order_num":"2","trial_type":"assignment-inference","trial_index":45,"time_elapsed":803176,"internal_node_id":"0.0-45.0","subject_id":"x03ohep3ck"},{"rt":974.6250000025611,"stimulus":"<div style='margin-left: auto;margin-right: auto;width: 75%;text-align: left;'>Great job! You've completed 80% of the trials! Click 'Continue' when you are ready to keep going. </div>","button_pressed":"0","trial_type":"html-button-response","trial_index":46,"time_elapsed":804155,"internal_node_id":"0.0-46.0","subject_id":"x03ohep3ck"},{"rt":10374,"label_options":"[\"green\",\"blue\",\"yellow\",\"red\",\"orange\"]","bar_cols":"[\"#fba714\",\"#2f6ef6\",\"#67cf5c\",\"#ea1d1d\",\"#fcdb42\"]","answer_key":"[\"orange\",\"blue\",\"green\",\"red\",\"yellow\"]","label_responses":"[\"orange\",\"blue\",\"green\",\"red\",\"yellow\"]","condition":"null","repetition":"4","category":"\"catch_trial\"","pal_source":"null","accuracies":"[1,1,1,1,1]","total accuracy":"5","order_num":"null","trial_type":"assignment-inference","trial_index":47,"time_elapsed":814533,"internal_node_id":"0.0-47.0","subject_id":"x03ohep3ck"},{"rt":16598,"label_options":"[\"reliability\",\"speed\",\"safety\",\"efficiency\",\"comfort\"]","bar_cols":"[\"#e81a4b\",\"#f1a78a\",\"#2f6ef6\",\"#443b14\",\"#55824d\"]","answer_key":"[\"speed\",\"comfort\",\"efficiency\",\"reliability\",\"safety\"]","label_responses":"[\"speed\",\"reliability\",\"comfort\",\"efficiency\",\"safety\"]","condition":"\"non-colorable\"","repetition":"4","category":"\"features\"","pal_source":"\"uw_71\"","accuracies":"[1,0,0,0,1]","total accuracy":"2","order_num":"4","trial_type":"assignment-inference","trial_index":48,"time_elapsed":831134,"internal_node_id":"0.0-48.0","subject_id":"x03ohep3ck"},{"rt":15462,"label_options":"[\"leisure\",\"working\",\"sleeping\",\"driving\",\"eating\"]","bar_cols":"[\"#8c564b\",\"#d62728\",\"#ff7f0e\",\"#f7b6d2\",\"#1f77b4\"]","answer_key":"[\"working\",\"driving\",\"eating\",\"leisure\",\"sleeping\"]","label_responses":"[\"driving\",\"eating\",\"working\",\"leisure\",\"sleeping\"]","condition":"\"non-colorable\"","repetition":"4","category":"\"activities\"","pal_source":"\"tab_20\"","accuracies":"[0,0,0,1,1]","total accuracy":"2","order_num":"4","trial_type":"assignment-inference","trial_index":49,"time_elapsed":846602,"internal_node_id":"0.0-49.0","subject_id":"x03ohep3ck"},{"rt":11678,"label_options":"[\"corn\",\"celery\",\"carrot\",\"mushroom\",\"eggplant\"]","bar_cols":"[\"#c7c7c7\",\"#ff7f0e\",\"#98df8a\",\"#bcbd22\",\"#9467bd\"]","answer_key":"[\"mushroom\",\"carrot\",\"celery\",\"corn\",\"eggplant\"]","label_responses":"[\"mushroom\",\"carrot\",\"celery\",\"corn\",\"eggplant\"]","condition":"\"colorable\"","repetition":"4","category":"\"vegetables\"","pal_source":"\"tab_20\"","accuracies":"[1,1,1,1,1]","total accuracy":"5","order_num":"4","trial_type":"assignment-inference","trial_index":50,"time_elapsed":858283,"internal_node_id":"0.0-50.0","subject_id":"x03ohep3ck"},{"rt":12616,"label_options":"[\"eating\",\"working\",\"leisure\",\"sleeping\",\"driving\"]","bar_cols":"[\"#83764c\",\"#3efe44\",\"#cc4f1b\",\"#39f6e0\",\"#2e3086\"]","answer_key":"[\"working\",\"driving\",\"eating\",\"leisure\",\"sleeping\"]","label_responses":"[\"driving\",\"working\",\"eating\",\"leisure\",\"sleeping\"]","condition":"\"non-colorable\"","repetition":"4","category":"\"activities\"","pal_source":"\"uw_71\"","accuracies":"[0,0,1,1,1]","total accuracy":"3","order_num":"4","trial_type":"assignment-inference","trial_index":51,"time_elapsed":870904,"internal_node_id":"0.0-51.0","subject_id":"x03ohep3ck"},{"rt":11214,"label_options":"[\"banana\",\"peach\",\"cherry\",\"apple\",\"grape\"]","bar_cols":"[\"#c49c94\",\"#17becf\",\"#bcbd22\",\"#d62728\",\"#9467bd\"]","answer_key":"[\"peach\",\"apple\",\"banana\",\"cherry\",\"grape\"]","label_responses":"[\"peach\",\"apple\",\"banana\",\"cherry\",\"grape\"]","condition":"\"colorable\"","repetition":"4","category":"\"fruits\"","pal_source":"\"tab_20\"","accuracies":"[1,1,1,1,1]","total accuracy":"5","order_num":"4","trial_type":"assignment-inference","trial_index":52,"time_elapsed":882121,"internal_node_id":"0.0-52.0","subject_id":"x03ohep3ck"},{"rt":13208,"label_options":"[\"eggplant\",\"celery\",\"corn\",\"mushroom\",\"carrot\"]","bar_cols":"[\"#83764c\",\"#cc4f1b\",\"#8cf47e\",\"#fcdb42\",\"#600b84\"]","answer_key":"[\"mushroom\",\"carrot\",\"celery\",\"corn\",\"eggplant\"]","label_responses":"[\"mushroom\",\"carrot\",\"celery\",\"corn\",\"eggplant\"]","condition":"\"colorable\"","repetition":"4","category":"\"vegetables\"","pal_source":"\"uw_71\"","accuracies":"[1,1,1,1,1]","total accuracy":"5","order_num":"4","trial_type":"assignment-inference","trial_index":53,"time_elapsed":895334,"internal_node_id":"0.0-53.0","subject_id":"x03ohep3ck"},{"rt":10655,"label_options":"[\"grape\",\"cherry\",\"peach\",\"apple\",\"banana\"]","bar_cols":"[\"#f1a78a\",\"#3efe44\",\"#fcdb42\",\"#e31b73\",\"#512d5f\"]","answer_key":"[\"peach\",\"apple\",\"banana\",\"cherry\",\"grape\"]","label_responses":"[\"peach\",\"apple\",\"banana\",\"cherry\",\"grape\"]","condition":"\"colorable\"","repetition":"4","category":"\"fruits\"","pal_source":"\"uw_71\"","accuracies":"[1,1,1,1,1]","total accuracy":"5","order_num":"4","trial_type":"assignment-inference","trial_index":54,"time_elapsed":905990,"internal_node_id":"0.0-54.0","subject_id":"x03ohep3ck"},{"rt":18201,"label_options":"[\"efficiency\",\"speed\",\"comfort\",\"reliability\",\"safety\"]","bar_cols":"[\"#d62728\",\"#f7b6d2\",\"#ff7f0e\",\"#9467bd\",\"#bcbd22\"]","answer_key":"[\"speed\",\"comfort\",\"efficiency\",\"reliability\",\"safety\"]","label_responses":"[\"speed\",\"comfort\",\"safety\",\"reliability\",\"efficiency\"]","condition":"\"non-colorable\"","repetition":"4","category":"\"features\"","pal_source":"\"tab_20\"","accuracies":"[1,1,0,1,0]","total accuracy":"3","order_num":"4","trial_type":"assignment-inference","trial_index":55,"time_elapsed":924198,"internal_node_id":"0.0-55.0","subject_id":"x03ohep3ck"},{"rt":2536.114999995334,"stimulus":"<div style='margin-left: auto;margin-right: auto;width: 400px;text-align: left;'>Amazing job! You've completed all of the trials. Press 'Continue' to answer some final questions and get your completion code!</div>","button_pressed":"0","trial_type":"html-button-response","trial_index":56,"time_elapsed":926736,"internal_node_id":"0.0-56.0","subject_id":"x03ohep3ck"},{"rt":4536.379999990459,"responses":"{\"colorDifficulty\":\"No\",\"colorBlind\":\"No\"}","question_order":"[0,1]","trial_type":"survey-multi-choice","trial_index":57,"time_elapsed":931276,"internal_node_id":"0.0-57.0","subject_id":"x03ohep3ck"}]